# quantum yield phi for NO3 -> NO + O2
# JPL (2006) at 298 K
# lambda       phi
#   [nm]       [1]
100. 0.0000
584. 0.0000
585. 0.0000
586. 0.0152
587. 0.0391
588. 0.0971
589. 0.1280
590. 0.1900
591. 0.2200
592. 0.2490
593. 0.3030
594. 0.3280
595. 0.3590
596. 0.3570
597. 0.3180
598. 0.3230
599. 0.3140
600. 0.2910
601. 0.2960
602. 0.2910
603. 0.2830
604. 0.2800
605. 0.2640
606. 0.2710
607. 0.2680
608. 0.2500
609. 0.2480
610. 0.2360
611. 0.2050
612. 0.2000
613. 0.1900
614. 0.1660
615. 0.1660
616. 0.1600
617. 0.1410
618. 0.1430
619. 0.1390
620. 0.1310
621. 0.1270
622. 0.1220
623. 0.1170
624. 0.1060
625. 0.0985
626. 0.0923
627. 0.0848
628. 0.0739
629. 0.0699
630. 0.0649
631. 0.0578
632. 0.0508
633. 0.0466
634. 0.0426
635. 0.0373
636. 0.0323
637. 0.0294
638. 0.0266
639. 0.0235
640. 0.0203
641. 0.0000
850. 0.0000
